SID,Name,GroupNM,Group,Trial,Probe,Response,Correct,RT
109,KMY,low,1,1,1,1,1,0.9006
109,KMY,low,1,2,1,1,1,0.6194
109,KMY,low,1,3,1,1,1,0.6879
109,KMY,low,1,4,2,2,1,1.0132
109,KMY,low,1,5,2,2,1,0.8274
109,KMY,low,1,6,2,2,1,0.6391
109,KMY,low,1,7,2,1,0,0.9133
109,KMY,low,1,8,2,2,1,0.8239
109,KMY,low,1,9,1,1,1,0.7638
109,KMY,low,1,10,2,2,1,0.7916
109,KMY,low,1,11,1,1,1,0.5882
109,KMY,low,1,12,1,1,1,0.7223
110,LJE,low,1,1,1,1,1,0.7708
110,LJE,low,1,2,1,1,1,0.8408
110,LJE,low,1,3,1,1,1,0.8778
110,LJE,low,1,4,2,2,1,1.0769
110,LJE,low,1,5,2,2,1,0.9552
110,LJE,low,1,6,2,2,1,1.1819
110,LJE,low,1,7,2,2,1,0.7846
110,LJE,low,1,8,2,2,1,0.9143
110,LJE,low,1,9,1,1,1,0.5371
110,LJE,low,1,10,2,2,1,0.9809
110,LJE,low,1,11,1,1,1,0.6493
110,LJE,low,1,12,1,1,1,0.8140
111,KJH,low,1,1,2,2,1,1.1135
111,KJH,low,1,2,1,1,1,1.1512
111,KJH,low,1,3,1,1,1,0.8994
111,KJH,low,1,4,2,2,1,1.4319
111,KJH,low,1,5,1,1,1,1.3098
111,KJH,low,1,6,2,2,1,1.1228
111,KJH,low,1,7,2,2,1,0.9419
111,KJH,low,1,8,2,2,1,0.9770
111,KJH,low,1,9,1,1,1,0.6632
111,KJH,low,1,10,2,2,1,0.9447
111,KJH,low,1,11,1,1,1,0.7261
111,KJH,low,1,12,1,1,1,0.5708
112,LSH,low,1,1,2,2,1,1.7938
112,LSH,low,1,2,1,1,1,1.5118
112,LSH,low,1,3,1,1,1,1.0690
112,LSH,low,1,4,2,2,1,1.1218
112,LSH,low,1,5,1,1,1,0.9039
112,LSH,low,1,6,2,2,1,0.9417
112,LSH,low,1,7,2,2,1,0.9832
112,LSH,low,1,8,2,2,1,0.9884
112,LSH,low,1,9,1,1,1,1.2492
112,LSH,low,1,10,2,2,1,0.7945
112,LSH,low,1,11,1,1,1,0.5418
112,LSH,low,1,12,1,1,1,0.7392
113,KYH,low,1,1,1,1,1,0.6379
113,KYH,low,1,2,1,1,1,0.5477
113,KYH,low,1,3,1,1,1,0.5824
113,KYH,low,1,4,2,2,1,1.3056
113,KYH,low,1,5,1,1,1,0.7994
113,KYH,low,1,6,2,2,1,1.3787
113,KYH,low,1,7,2,2,1,1.1990
113,KYH,low,1,8,2,2,1,1.8108
113,KYH,low,1,9,1,1,1,0.6982
113,KYH,low,1,10,1,1,1,0.8895
113,KYH,low,1,11,2,2,1,1.2773
113,KYH,low,1,12,2,2,1,1.0918
114,CJH,low,1,1,1,1,1,0.8530
114,CJH,low,1,2,1,1,1,1.2439
114,CJH,low,1,3,1,1,1,0.4482
114,CJH,low,1,4,2,2,1,1.1385
114,CJH,low,1,5,1,1,1,0.8254
114,CJH,low,1,6,2,2,1,1.4705
114,CJH,low,1,7,2,2,1,1.3830
114,CJH,low,1,8,2,2,1,1.5501
114,CJH,low,1,9,1,1,1,0.8179
114,CJH,low,1,10,1,1,1,0.8844
114,CJH,low,1,11,2,2,1,1.2387
114,CJH,low,1,12,2,2,1,1.0546
115,HYS,low,1,1,2,2,1,1.3202
115,HYS,low,1,2,1,1,1,1.5040
115,HYS,low,1,3,1,1,1,0.7084
115,HYS,low,1,4,1,1,1,1.0415
115,HYS,low,1,5,1,1,1,0.5990
115,HYS,low,1,6,1,1,1,0.6044
115,HYS,low,1,7,2,2,1,1.5272
115,HYS,low,1,8,2,2,1,1.6581
115,HYS,low,1,9,1,1,1,1.1830
115,HYS,low,1,10,2,2,1,1.3287
115,HYS,low,1,11,2,2,1,1.2684
115,HYS,low,1,12,2,2,1,1.1777
116,JGH,low,1,1,2,2,1,1.5005
116,JGH,low,1,2,1,1,1,0.9642
116,JGH,low,1,3,1,1,1,0.5852
116,JGH,low,1,4,1,1,1,1.1704
116,JGH,low,1,5,1,1,1,0.7284
116,JGH,low,1,6,1,2,0,1.6304
116,JGH,low,1,7,2,2,1,1.3063
116,JGH,low,1,8,2,2,1,1.0551
116,JGH,low,1,9,1,1,1,0.5164
116,JGH,low,1,10,2,2,1,1.0420
116,JGH,low,1,11,2,2,1,0.7917
116,JGH,low,1,12,2,2,1,0.9556
123,KYM,low,1,1,1,1,1,1.4409
123,KYM,low,1,2,1,1,1,0.8075
123,KYM,low,1,3,1,1,1,0.5575
123,KYM,low,1,4,1,1,1,0.7917
123,KYM,low,1,5,2,2,1,1.3388
123,KYM,low,1,6,2,2,1,1.1520
123,KYM,low,1,7,2,2,1,1.0056
123,KYM,low,1,8,2,2,1,1.0414
123,KYM,low,1,9,1,1,1,0.7593
123,KYM,low,1,10,2,2,1,0.8470
123,KYM,low,1,11,1,1,1,0.5005
123,KYM,low,1,12,2,2,1,1.3055
124,JSH,low,1,1,1,0,0,0.0000
124,JSH,low,1,2,1,1,1,0.5683
124,JSH,low,1,3,1,1,1,0.5880
124,JSH,low,1,4,1,1,1,0.5856
124,JSH,low,1,5,2,2,1,1.3569
124,JSH,low,1,6,2,2,1,0.8181
124,JSH,low,1,7,2,2,1,0.9296
124,JSH,low,1,8,2,2,1,1.1870
124,JSH,low,1,9,1,2,0,0.8430
124,JSH,low,1,10,2,0,0,0.0000
124,JSH,low,1,11,1,2,0,1.3818
124,JSH,low,1,12,2,2,1,1.0050
127,CHN,low,1,1,1,0,0,0.0000
127,CHN,low,1,2,2,2,1,1.3773
127,CHN,low,1,3,1,1,1,0.9661
127,CHN,low,1,4,1,1,1,0.9763
127,CHN,low,1,5,2,2,1,1.9729
127,CHN,low,1,6,1,1,1,0.6354
127,CHN,low,1,7,2,2,1,1.4281
127,CHN,low,1,8,2,2,1,1.1142
127,CHN,low,1,9,2,2,1,1.2467
127,CHN,low,1,10,1,1,1,1.3734
127,CHN,low,1,11,1,1,1,0.7705
127,CHN,low,1,12,2,2,1,1.2876
128,PSY,low,1,1,1,1,1,1.5543
128,PSY,low,1,2,2,2,1,1.2698
128,PSY,low,1,3,1,1,1,0.7309
128,PSY,low,1,4,1,1,1,0.7421
128,PSY,low,1,5,2,2,1,1.2255
128,PSY,low,1,6,1,1,1,0.5255
128,PSY,low,1,7,2,2,1,1.3545
128,PSY,low,1,8,2,2,1,1.1651
128,PSY,low,1,9,2,2,1,1.2367
128,PSY,low,1,10,1,1,1,0.6596
128,PSY,low,1,11,1,1,1,0.7283
128,PSY,low,1,12,2,2,1,1.3712
129,JS,low,1,1,2,0,0,0.0000
129,JS,low,1,2,1,1,1,1.3135
129,JS,low,1,3,1,1,1,1.5107
129,JS,low,1,4,2,0,0,0.0000
129,JS,low,1,5,1,1,1,0.8629
129,JS,low,1,6,1,1,1,0.4510
129,JS,low,1,7,2,2,1,1.3316
129,JS,low,1,8,2,2,1,0.8558
129,JS,low,1,9,1,1,1,0.7987
129,JS,low,1,10,2,1,0,1.4857
129,JS,low,1,11,2,2,1,0.7544
129,JS,low,1,12,1,1,1,0.4723
130,KYJ,low,1,1,2,2,1,1.5328
130,KYJ,low,1,2,1,1,1,1.2195
130,KYJ,low,1,3,1,1,1,0.6791
130,KYJ,low,1,4,2,2,1,0.9868
130,KYJ,low,1,5,1,1,1,0.7336
130,KYJ,low,1,6,1,1,1,0.4213
130,KYJ,low,1,7,2,2,1,1.1719
130,KYJ,low,1,8,2,2,1,0.5709
130,KYJ,low,1,9,1,1,1,0.5765
130,KYJ,low,1,10,2,2,1,0.7523
130,KYJ,low,1,11,2,2,1,0.5664
130,KYJ,low,1,12,1,2,0,0.9855
133,KMJ,low,1,1,1,1,1,1.5325
133,KMJ,low,1,2,2,2,1,1.2806
133,KMJ,low,1,3,2,2,1,1.3807
133,KMJ,low,1,4,2,2,1,1.1416
133,KMJ,low,1,5,1,1,1,0.8251
133,KMJ,low,1,6,1,1,1,0.6384
133,KMJ,low,1,7,1,1,1,0.5972
133,KMJ,low,1,8,2,2,1,1.1446
133,KMJ,low,1,9,2,2,1,0.9273
133,KMJ,low,1,10,1,1,1,0.6993
133,KMJ,low,1,11,2,2,1,0.8312
133,KMJ,low,1,12,1,1,1,0.5179
134,JEH,low,1,1,1,1,1,1.1382
134,JEH,low,1,2,2,2,1,1.2080
134,JEH,low,1,3,2,2,1,1.1809
134,JEH,low,1,4,2,2,1,0.7798
134,JEH,low,1,5,1,1,1,1.4227
134,JEH,low,1,6,1,1,1,0.8219
134,JEH,low,1,7,1,1,1,0.4920
134,JEH,low,1,8,2,2,1,1.2321
134,JEH,low,1,9,2,2,1,0.7885
134,JEH,low,1,10,1,1,1,0.4649
134,JEH,low,1,11,2,2,1,1.0145
134,JEH,low,1,12,1,1,1,0.6356
125,BTS,low,1,1,1,1,1,1.1593
125,BTS,low,1,2,1,1,1,0.4922
125,BTS,low,1,3,2,2,1,0.9116
125,BTS,low,1,4,1,1,1,0.5684
125,BTS,low,1,5,2,2,1,0.8620
125,BTS,low,1,6,2,2,1,0.8344
125,BTS,low,1,7,1,1,1,0.6312
125,BTS,low,1,8,2,2,1,0.8917
125,BTS,low,1,9,2,2,1,0.8636
125,BTS,low,1,10,2,2,1,1.0676
125,BTS,low,1,11,1,2,0,1.5191
125,BTS,low,1,12,1,1,1,0.6296
126,JBY,low,1,1,1,1,1,0.9900
126,JBY,low,1,2,1,1,1,0.7679
126,JBY,low,1,3,2,2,1,0.7731
126,JBY,low,1,4,1,1,1,0.7164
126,JBY,low,1,5,2,2,1,0.7218
126,JBY,low,1,6,2,2,1,0.7288
126,JBY,low,1,7,1,1,1,0.5244
126,JBY,low,1,8,2,2,1,0.8189
126,JBY,low,1,9,2,2,1,0.8210
126,JBY,low,1,10,2,2,1,0.6095
126,JBY,low,1,11,1,1,1,1.2858
126,JBY,low,1,12,1,1,1,0.8748
139,KJE,low,1,1,2,2,1,1.9109
139,KJE,low,1,2,1,1,1,1.3074
139,KJE,low,1,3,2,2,1,1.3762
139,KJE,low,1,4,2,2,1,1.5574
139,KJE,low,1,5,1,1,1,1.3077
139,KJE,low,1,6,2,2,1,1.4390
139,KJE,low,1,7,1,1,1,1.1317
139,KJE,low,1,8,1,1,1,0.9463
139,KJE,low,1,9,2,2,1,1.2705
139,KJE,low,1,10,1,1,1,1.5892
139,KJE,low,1,11,1,1,1,0.7288
139,KJE,low,1,12,2,2,1,1.0524
140,LHB,low,1,1,2,2,1,1.4787
140,LHB,low,1,2,1,1,1,1.1009
140,LHB,low,1,3,2,2,1,1.0423
140,LHB,low,1,4,2,2,1,1.2224
140,LHB,low,1,5,1,1,1,1.2610
140,LHB,low,1,6,2,2,1,1.1702
140,LHB,low,1,7,1,1,1,0.9267
140,LHB,low,1,8,1,1,1,0.7060
140,LHB,low,1,9,2,2,1,1.1604
140,LHB,low,1,10,1,1,1,0.8679
140,LHB,low,1,11,1,1,1,0.4889
140,LHB,low,1,12,2,2,1,1.1983
141,LJH,low,1,1,2,2,1,1.7953
141,LJH,low,1,2,1,1,1,0.9342
141,LJH,low,1,3,2,2,1,1.0697
141,LJH,low,1,4,1,1,1,1.6181
141,LJH,low,1,5,1,1,1,0.6966
141,LJH,low,1,6,1,1,1,1.4040
141,LJH,low,1,7,2,2,1,0.8822
141,LJH,low,1,8,1,1,1,0.8856
141,LJH,low,1,9,1,1,1,0.6018
141,LJH,low,1,10,2,2,1,0.8266
141,LJH,low,1,11,2,2,1,0.9919
141,LJH,low,1,12,2,2,1,0.8690
142,LCH,low,1,1,2,2,1,1.6205
142,LCH,low,1,2,1,1,1,0.9545
142,LCH,low,1,3,2,2,1,1.0247
142,LCH,low,1,4,1,2,0,1.2851
142,LCH,low,1,5,1,1,1,0.6198
142,LCH,low,1,6,1,1,1,0.5289
142,LCH,low,1,7,2,2,1,1.2189
142,LCH,low,1,8,1,1,1,0.6155
142,LCH,low,1,9,1,1,1,0.4933
142,LCH,low,1,10,2,2,1,1.0056
142,LCH,low,1,11,2,2,1,0.9153
142,LCH,low,1,12,2,2,1,0.8870
143,LHJ,low,1,1,2,2,1,1.8917
143,LHJ,low,1,2,2,0,0,0.0000
143,LHJ,low,1,3,1,1,1,0.8766
143,LHJ,low,1,4,2,2,1,1.3005
143,LHJ,low,1,5,1,1,1,0.5062
143,LHJ,low,1,6,1,1,1,0.5098
143,LHJ,low,1,7,1,1,1,0.6903
143,LHJ,low,1,8,2,2,1,1.4307
143,LHJ,low,1,9,1,1,1,0.4123
143,LHJ,low,1,10,2,2,1,0.9546
143,LHJ,low,1,11,2,2,1,0.8313
143,LHJ,low,1,12,1,1,1,0.3875
144,KGY,low,1,1,2,2,1,1.2365
144,KGY,low,1,2,2,2,1,0.7637
144,KGY,low,1,3,1,1,1,0.6083
144,KGY,low,1,4,2,2,1,0.6175
144,KGY,low,1,5,1,1,1,0.3631
144,KGY,low,1,6,1,1,1,0.4336
144,KGY,low,1,7,1,1,1,0.4195
144,KGY,low,1,8,2,2,1,0.9688
144,KGY,low,1,9,1,1,1,0.3662
144,KGY,low,1,10,2,2,1,0.6194
144,KGY,low,1,11,2,2,1,0.6896
144,KGY,low,1,12,1,1,1,0.3728
153,KJW,low,1,1,2,2,1,1.4392
153,KJW,low,1,2,1,1,1,0.7067
153,KJW,low,1,3,1,1,1,0.8413
153,KJW,low,1,4,2,2,1,1.1966
153,KJW,low,1,5,2,2,1,1.2655
153,KJW,low,1,6,1,1,1,0.7893
153,KJW,low,1,7,1,1,1,0.7527
153,KJW,low,1,8,1,1,1,0.6919
153,KJW,low,1,9,1,1,1,0.7941
153,KJW,low,1,10,2,2,1,0.7894
153,KJW,low,1,11,2,2,1,0.9540
153,KJW,low,1,12,2,2,1,0.8954
154,PHS,low,1,1,2,2,1,1.5886
154,PHS,low,1,2,1,1,1,0.8877
154,PHS,low,1,3,1,1,1,0.9891
154,PHS,low,1,4,2,2,1,1.1834
154,PHS,low,1,5,2,2,1,1.3500
154,PHS,low,1,6,1,1,1,0.7141
154,PHS,low,1,7,1,1,1,0.6774
154,PHS,low,1,8,1,1,1,0.8408
154,PHS,low,1,9,1,1,1,0.7185
154,PHS,low,1,10,2,2,1,0.9051
154,PHS,low,1,11,2,2,1,1.0684
154,PHS,low,1,12,2,2,1,0.9472
151,KSH,low,1,1,2,2,1,1.5345
151,KSH,low,1,2,1,1,1,1.6681
151,KSH,low,1,3,2,2,1,1.2269
151,KSH,low,1,4,1,1,1,0.9733
151,KSH,low,1,5,2,2,1,1.2327
151,KSH,low,1,6,2,2,1,1.2695
151,KSH,low,1,7,1,1,1,1.0730
151,KSH,low,1,8,1,1,1,0.7264
151,KSH,low,1,9,1,1,1,0.8927
151,KSH,low,1,10,2,2,1,1.2079
151,KSH,low,1,11,1,1,1,1.6909
151,KSH,low,1,12,2,1,0,0.9925
152,KTY,low,1,1,2,2,1,1.6852
152,KTY,low,1,2,1,1,1,1.3382
152,KTY,low,1,3,2,2,1,1.1183
152,KTY,low,1,4,1,1,1,1.3425
152,KTY,low,1,5,2,2,1,1.2839
152,KTY,low,1,6,2,1,0,1.8326
152,KTY,low,1,7,1,1,1,0.9678
152,KTY,low,1,8,1,1,1,0.8435
152,KTY,low,1,9,1,1,1,0.6907
152,KTY,low,1,10,2,2,1,1.2927
152,KTY,low,1,11,1,1,1,0.8486
152,KTY,low,1,12,2,2,1,1.5278
157,DXY,low,1,1,2,1,0,1.0881
157,DXY,low,1,2,1,2,0,1.1274
157,DXY,low,1,3,1,1,1,1.0025
157,DXY,low,1,4,1,1,1,0.9848
157,DXY,low,1,5,1,1,1,0.6713
157,DXY,low,1,6,2,2,1,0.6126
157,DXY,low,1,7,1,1,1,0.9806
157,DXY,low,1,8,2,2,1,0.7923
157,DXY,low,1,9,1,1,1,0.7665
157,DXY,low,1,10,2,2,1,0.8472
157,DXY,low,1,11,2,1,0,0.6315
157,DXY,low,1,12,2,2,1,1.5952
158,SSY,low,1,1,2,2,1,1.3523
158,SSY,low,1,2,1,1,1,0.8468
158,SSY,low,1,3,1,1,1,0.6263
158,SSY,low,1,4,1,1,1,0.5774
158,SSY,low,1,5,1,1,1,0.7729
158,SSY,low,1,6,2,2,1,0.8427
158,SSY,low,1,7,1,1,1,0.4787
158,SSY,low,1,8,2,2,1,0.9003
158,SSY,low,1,9,1,1,1,0.6792
158,SSY,low,1,10,2,2,1,0.7606
158,SSY,low,1,11,2,2,1,0.4760
158,SSY,low,1,12,2,2,1,0.8356
155,HDH,low,1,1,2,2,1,1.4990
155,HDH,low,1,2,2,2,1,1.0537
155,HDH,low,1,3,2,2,1,0.7088
155,HDH,low,1,4,2,2,1,0.6927
155,HDH,low,1,5,2,2,1,0.6663
155,HDH,low,1,6,1,1,1,0.6700
155,HDH,low,1,7,1,1,1,0.4999
155,HDH,low,1,8,1,1,1,0.5067
155,HDH,low,1,9,1,1,1,0.4793
155,HDH,low,1,10,2,2,1,1.0085
155,HDH,low,1,11,1,1,1,0.5650
155,HDH,low,1,12,1,2,0,0.7952
156,HDY,low,1,1,2,2,1,1.2196
156,HDY,low,1,2,2,2,1,1.0936
156,HDY,low,1,3,2,2,1,0.8779
156,HDY,low,1,4,2,2,1,0.6690
156,HDY,low,1,5,2,2,1,0.7057
156,HDY,low,1,6,1,2,0,0.6787
156,HDY,low,1,7,1,1,1,0.8601
156,HDY,low,1,8,1,2,0,0.6749
156,HDY,low,1,9,1,1,1,0.6142
156,HDY,low,1,10,2,2,1,0.7598
156,HDY,low,1,11,1,1,1,0.4465
156,HDY,low,1,12,1,0,0,0.0000
201,YHJ,high,2,1,2,2,1,1.8252
201,YHJ,high,2,2,2,2,1,1.2226
201,YHJ,high,2,3,2,0,0,0.0000
201,YHJ,high,2,4,1,1,1,1.3692
201,YHJ,high,2,5,1,1,1,0.8642
201,YHJ,high,2,6,1,1,1,0.7418
201,YHJ,high,2,7,2,2,1,1.7727
201,YHJ,high,2,8,2,2,1,1.0414
201,YHJ,high,2,9,1,1,1,1.1746
201,YHJ,high,2,10,1,1,1,1.5921
201,YHJ,high,2,11,2,2,1,1.4998
201,YHJ,high,2,12,1,1,1,0.7688
202,LJE,high,2,1,2,2,1,1.3876
202,LJE,high,2,2,2,2,1,1.2966
202,LJE,high,2,3,2,0,0,0.0000
202,LJE,high,2,4,1,1,1,0.8693
202,LJE,high,2,5,1,1,1,0.6207
202,LJE,high,2,6,1,1,1,0.6244
202,LJE,high,2,7,2,2,1,0.8227
202,LJE,high,2,8,2,2,1,0.7021
202,LJE,high,2,9,1,1,1,1.0278
202,LJE,high,2,10,1,1,1,0.8964
202,LJE,high,2,11,2,2,1,0.7107
202,LJE,high,2,12,1,1,1,0.6518
203,CS,high,2,1,1,0,0,0.0000
203,CS,high,2,2,1,2,0,1.9606
203,CS,high,2,3,2,2,1,1.3913
203,CS,high,2,4,1,0,0,0.0000
203,CS,high,2,5,2,0,0,0.0000
203,CS,high,2,6,2,2,1,1.3697
203,CS,high,2,7,2,2,1,1.1349
203,CS,high,2,8,2,2,1,1.2364
203,CS,high,2,9,1,2,0,1.6257
203,CS,high,2,10,2,0,0,0.0000
203,CS,high,2,11,1,1,1,1.5368
203,CS,high,2,12,1,1,1,1.2868
204,HSJ,high,2,1,1,0,0,0.0000
204,HSJ,high,2,2,1,1,1,1.1393
204,HSJ,high,2,3,2,2,1,1.4333
204,HSJ,high,2,4,1,1,1,1.3713
204,HSJ,high,2,5,2,2,1,1.4706
204,HSJ,high,2,6,2,2,1,1.3171
204,HSJ,high,2,7,2,2,1,0.9865
204,HSJ,high,2,8,2,2,1,0.9601
204,HSJ,high,2,9,1,1,1,1.1256
204,HSJ,high,2,10,2,2,1,1.2876
204,HSJ,high,2,11,1,1,1,1.0993
204,HSJ,high,2,12,1,1,1,0.9117
205,KDY,high,2,1,1,1,1,1.9190
205,KDY,high,2,2,2,2,1,1.4446
205,KDY,high,2,3,1,2,0,1.0348
205,KDY,high,2,4,1,1,1,1.6174
205,KDY,high,2,5,2,2,1,1.4304
205,KDY,high,2,6,2,2,1,1.1134
205,KDY,high,2,7,1,1,1,1.2752
205,KDY,high,2,8,1,1,1,1.0259
205,KDY,high,2,9,2,2,1,1.0297
205,KDY,high,2,10,2,2,1,1.1688
205,KDY,high,2,11,2,2,1,1.1721
205,KDY,high,2,12,1,1,1,0.8574
207,JDH,high,2,1,2,0,0,0.0000
207,JDH,high,2,2,1,1,1,1.3307
207,JDH,high,2,3,2,2,1,1.0177
207,JDH,high,2,4,1,1,1,1.0168
207,JDH,high,2,5,1,1,1,0.8916
207,JDH,high,2,6,2,2,1,1.4088
207,JDH,high,2,7,2,2,1,1.0788
207,JDH,high,2,8,2,2,1,0.8589
207,JDH,high,2,9,2,2,1,1.0546
207,JDH,high,2,10,1,1,1,0.8815
207,JDH,high,2,11,1,1,1,0.8244
207,JDH,high,2,12,1,1,1,0.7962
208,JSI,high,2,1,2,2,1,1.1168
208,JSI,high,2,2,1,2,0,0.9598
208,JSI,high,2,3,2,2,1,0.8707
208,JSI,high,2,4,1,2,0,1.0935
208,JSI,high,2,5,1,2,0,1.0649
208,JSI,high,2,6,2,2,1,1.1660
208,JSI,high,2,7,2,2,1,0.8678
208,JSI,high,2,8,2,2,1,1.0631
208,JSI,high,2,9,2,2,1,0.8450
208,JSI,high,2,10,1,1,1,0.8673
208,JSI,high,2,11,1,1,1,0.8685
208,JSI,high,2,12,1,1,1,0.6837
217,KJH,high,2,1,1,1,1,1.4836
217,KJH,high,2,2,2,2,1,1.2632
217,KJH,high,2,3,2,2,1,1.4597
217,KJH,high,2,4,1,1,1,1.1088
217,KJH,high,2,5,1,1,1,0.8592
217,KJH,high,2,6,2,2,1,1.1198
217,KJH,high,2,7,1,1,1,1.1054
217,KJH,high,2,8,2,2,1,1.0783
217,KJH,high,2,9,2,2,1,0.9865
217,KJH,high,2,10,1,1,1,1.1720
217,KJH,high,2,11,2,2,1,0.9548
217,KJH,high,2,12,1,1,1,0.9286
218,SJW,high,2,1,1,1,1,1.5996
218,SJW,high,2,2,2,2,1,1.5094
218,SJW,high,2,3,2,2,1,1.4178
218,SJW,high,2,4,1,1,1,1.4838
218,SJW,high,2,5,1,1,1,1.0384
218,SJW,high,2,6,2,2,1,1.3319
218,SJW,high,2,7,1,1,1,1.2545
218,SJW,high,2,8,2,2,1,1.2589
218,SJW,high,2,9,2,2,1,1.1361
218,SJW,high,2,10,1,1,1,1.0373
218,SJW,high,2,11,2,2,1,1.3933
218,SJW,high,2,12,1,1,1,0.7929
221,PSK,high,2,1,1,2,0,1.2773
221,PSK,high,2,2,1,1,1,1.0573
221,PSK,high,2,3,1,1,1,0.6768
221,PSK,high,2,4,2,2,1,1.4966
221,PSK,high,2,5,1,1,1,0.8314
221,PSK,high,2,6,2,2,1,1.0908
221,PSK,high,2,7,2,2,1,1.1373
221,PSK,high,2,8,2,2,1,1.1094
221,PSK,high,2,9,2,2,1,0.9240
221,PSK,high,2,10,1,1,1,1.2030
221,PSK,high,2,11,2,2,1,0.9851
221,PSK,high,2,12,1,1,1,0.8626
222,LYS,high,2,1,1,1,1,1.4646
222,LYS,high,2,2,1,1,1,1.0228
222,LYS,high,2,3,1,1,1,0.8348
222,LYS,high,2,4,2,2,1,1.0453
222,LYS,high,2,5,1,1,1,0.9557
222,LYS,high,2,6,2,2,1,0.7023
222,LYS,high,2,7,2,2,1,1.0709
222,LYS,high,2,8,2,2,1,0.8186
222,LYS,high,2,9,2,2,1,0.7592
222,LYS,high,2,10,1,1,1,0.9755
222,LYS,high,2,11,2,2,1,0.8225
222,LYS,high,2,12,1,1,1,0.7323
219,LJH,high,2,1,2,2,1,1.2817
219,LJH,high,2,2,1,1,1,1.3501
219,LJH,high,2,3,2,2,1,1.0684
219,LJH,high,2,4,2,2,1,1.1071
219,LJH,high,2,5,2,2,1,1.2078
219,LJH,high,2,6,1,1,1,1.2439
219,LJH,high,2,7,1,1,1,1.8477
219,LJH,high,2,8,1,1,1,1.0514
219,LJH,high,2,9,2,2,1,0.9927
219,LJH,high,2,10,1,1,1,0.8514
219,LJH,high,2,11,2,2,1,0.8240
219,LJH,high,2,12,1,1,1,0.8926
220,PDJ,high,2,1,2,2,1,1.0283
220,PDJ,high,2,2,1,1,1,1.0354
220,PDJ,high,2,3,2,2,1,0.8465
220,PDJ,high,2,4,2,2,1,0.8880
220,PDJ,high,2,5,2,2,1,0.7308
220,PDJ,high,2,6,1,1,1,0.7678
220,PDJ,high,2,7,1,1,1,0.8588
220,PDJ,high,2,8,1,1,1,0.4474
220,PDJ,high,2,9,2,2,1,0.7083
220,PDJ,high,2,10,1,1,1,0.5351
220,PDJ,high,2,11,2,2,1,0.6035
220,PDJ,high,2,12,1,1,1,0.7699
231,BEY2,high,2,1,1,1,1,1.0116
231,BEY2,high,2,2,1,1,1,0.5689
231,BEY2,high,2,3,2,2,1,1.2439
231,BEY2,high,2,4,1,1,1,1.0182
231,BEY2,high,2,5,2,2,1,1.5680
231,BEY2,high,2,6,1,1,1,0.8057
231,BEY2,high,2,7,1,1,1,0.9798
231,BEY2,high,2,8,1,1,1,0.9207
231,BEY2,high,2,9,2,2,1,1.0876
231,BEY2,high,2,10,2,2,1,1.0778
231,BEY2,high,2,11,2,2,1,1.2419
231,BEY2,high,2,12,2,2,1,1.1851
232,JDY2,high,2,1,1,1,1,1.9304
232,JDY2,high,2,2,1,1,1,0.9439
232,JDY2,high,2,3,2,2,1,1.2674
232,JDY2,high,2,4,1,1,1,1.3636
232,JDY2,high,2,5,2,2,1,1.6556
232,JDY2,high,2,6,1,2,0,1.4362
232,JDY2,high,2,7,1,1,1,1.0036
232,JDY2,high,2,8,1,1,1,0.9441
232,JDY2,high,2,9,2,2,1,1.2376
232,JDY2,high,2,10,2,2,1,1.1645
232,JDY2,high,2,11,2,2,1,1.1690
232,JDY2,high,2,12,2,2,1,1.3033
233,KKT,high,2,1,2,0,0,0.0000
233,KKT,high,2,2,1,1,1,1.6053
233,KKT,high,2,3,1,1,1,1.2587
233,KKT,high,2,4,1,1,1,0.9252
233,KKT,high,2,5,1,1,1,0.8348
233,KKT,high,2,6,2,2,1,1.4167
233,KKT,high,2,7,1,1,1,0.9485
233,KKT,high,2,8,1,1,1,0.6956
233,KKT,high,2,9,2,2,1,1.1808
233,KKT,high,2,10,2,2,1,1.1389
233,KKT,high,2,11,2,2,1,1.1774
233,KKT,high,2,12,2,2,1,0.9258
234,KMS,high,2,1,2,2,1,1.7690
234,KMS,high,2,2,1,1,1,1.1069
234,KMS,high,2,3,1,1,1,1.1087
234,KMS,high,2,4,1,1,1,1.0316
234,KMS,high,2,5,1,1,1,0.8437
234,KMS,high,2,6,2,2,1,1.5852
234,KMS,high,2,7,1,1,1,0.9595
234,KMS,high,2,8,1,1,1,0.7713
234,KMS,high,2,9,2,2,1,1.0647
234,KMS,high,2,10,2,2,1,1.0844
234,KMS,high,2,11,2,2,1,1.2173
234,KMS,high,2,12,2,2,1,1.1605
237,KBH,high,2,1,1,1,1,0.9921
237,KBH,high,2,2,2,1,0,1.0299
237,KBH,high,2,3,2,2,1,0.9725
237,KBH,high,2,4,1,1,1,0.8265
237,KBH,high,2,5,1,1,1,0.8332
237,KBH,high,2,6,2,2,1,1.1258
237,KBH,high,2,7,1,1,1,0.8424
237,KBH,high,2,8,2,2,1,1.1368
237,KBH,high,2,9,1,1,1,0.9823
237,KBH,high,2,10,2,2,1,1.5551
237,KBH,high,2,11,1,1,1,0.9206
237,KBH,high,2,12,2,2,1,1.2778
238,ASC,high,2,1,1,1,1,1.2344
238,ASC,high,2,2,2,2,1,1.3657
238,ASC,high,2,3,2,2,1,1.1475
238,ASC,high,2,4,1,1,1,1.3876
238,ASC,high,2,5,1,1,1,1.1055
238,ASC,high,2,6,2,2,1,1.1413
238,ASC,high,2,7,1,1,1,1.0510
238,ASC,high,2,8,2,2,1,0.9942
238,ASC,high,2,9,1,2,0,1.2219
238,ASC,high,2,10,2,2,1,1.1234
238,ASC,high,2,11,1,1,1,0.9696
238,ASC,high,2,12,2,2,1,1.1021
239,PWJ,high,2,1,2,2,1,1.8751
239,PWJ,high,2,2,2,2,1,1.4955
239,PWJ,high,2,3,2,2,1,1.4666
239,PWJ,high,2,4,1,0,0,0.0000
239,PWJ,high,2,5,1,1,1,1.5860
239,PWJ,high,2,6,2,0,0,0.0000
239,PWJ,high,2,7,1,1,1,1.9453
239,PWJ,high,2,8,1,0,0,0.0000
239,PWJ,high,2,9,2,2,1,1.7456
239,PWJ,high,2,10,2,2,1,1.9792
239,PWJ,high,2,11,1,1,1,1.8231
239,PWJ,high,2,12,1,2,0,1.8302
241,OYJ,high,2,1,2,0,0,0.0000
241,OYJ,high,2,2,2,2,1,1.0029
241,OYJ,high,2,3,1,1,1,1.1036
241,OYJ,high,2,4,1,1,1,0.9444
241,OYJ,high,2,5,1,1,1,0.8536
241,OYJ,high,2,6,1,1,1,0.9865
241,OYJ,high,2,7,2,2,1,1.3285
241,OYJ,high,2,8,2,2,1,1.3018
241,OYJ,high,2,9,1,1,1,1.0211
241,OYJ,high,2,10,1,1,1,1.2437
241,OYJ,high,2,11,2,2,1,1.2487
241,OYJ,high,2,12,2,2,1,0.9657
242,JSY,high,2,1,2,0,0,0.0000
242,JSY,high,2,2,2,2,1,0.9234
242,JSY,high,2,3,1,1,1,0.8321
242,JSY,high,2,4,1,1,1,0.9625
242,JSY,high,2,5,1,1,1,0.6464
242,JSY,high,2,6,1,1,1,0.6852
242,JSY,high,2,7,2,2,1,0.9656
242,JSY,high,2,8,2,2,1,0.9377
242,JSY,high,2,9,1,1,1,0.6243
242,JSY,high,2,10,1,1,1,0.8781
242,JSY,high,2,11,2,2,1,0.9795
242,JSY,high,2,12,2,2,1,0.7587
243,JSY,high,2,1,1,1,1,1.6663
243,JSY,high,2,2,2,2,1,1.5445
243,JSY,high,2,3,2,2,1,1.5805
243,JSY,high,2,4,1,1,1,1.9081
243,JSY,high,2,5,1,1,1,1.8499
243,JSY,high,2,6,2,2,1,1.5042
243,JSY,high,2,7,2,2,1,1.5856
243,JSY,high,2,8,1,1,1,1.5279
243,JSY,high,2,9,1,2,0,1.2779
243,JSY,high,2,10,2,0,0,0.0000
243,JSY,high,2,11,1,2,0,1.4288
243,JSY,high,2,12,2,2,1,1.1782
244,PYR,high,2,1,1,1,1,1.9745
244,PYR,high,2,2,2,2,1,1.7212
244,PYR,high,2,3,2,2,1,1.4732
244,PYR,high,2,4,1,1,1,1.7021
244,PYR,high,2,5,1,1,1,1.0693
244,PYR,high,2,6,2,2,1,1.2040
244,PYR,high,2,7,2,2,1,1.7317
244,PYR,high,2,8,1,1,1,1.3222
244,PYR,high,2,9,1,1,1,1.0060
244,PYR,high,2,10,2,2,1,1.2509
244,PYR,high,2,11,1,1,1,0.9659
244,PYR,high,2,12,2,2,1,1.6452
251,PJW,high,2,1,1,1,1,1.3328
251,PJW,high,2,2,2,2,1,1.7842
251,PJW,high,2,3,2,2,1,1.4702
251,PJW,high,2,4,2,2,1,1.1786
251,PJW,high,2,5,1,1,1,0.9612
251,PJW,high,2,6,1,1,1,0.8394
251,PJW,high,2,7,2,2,1,1.3604
251,PJW,high,2,8,2,2,1,0.9822
251,PJW,high,2,9,1,1,1,0.9253
251,PJW,high,2,10,1,1,1,0.8886
251,PJW,high,2,11,2,2,1,0.8615
251,PJW,high,2,12,1,1,1,1.2830
252,PJS,high,2,1,1,1,1,1.8015
252,PJS,high,2,2,2,1,0,1.1012
252,PJS,high,2,3,2,2,1,1.3009
252,PJS,high,2,4,2,2,1,1.6167
252,PJS,high,2,5,1,2,0,1.3983
252,PJS,high,2,6,1,1,1,1.3693
252,PJS,high,2,7,2,2,1,0.6162
252,PJS,high,2,8,2,2,1,1.0678
252,PJS,high,2,9,1,1,1,1.3606
252,PJS,high,2,10,1,2,0,1.5820
252,PJS,high,2,11,2,2,1,0.6569
252,PJS,high,2,12,1,1,1,0.8867
253,KSH,high,2,1,1,0,0,0.0000
253,KSH,high,2,2,2,0,0,0.0000
253,KSH,high,2,3,1,1,1,0.9719
253,KSH,high,2,4,1,1,1,1.2041
253,KSH,high,2,5,1,1,1,0.7299
253,KSH,high,2,6,1,1,1,0.5751
253,KSH,high,2,7,2,2,1,1.2976
253,KSH,high,2,8,2,2,1,0.8863
253,KSH,high,2,9,2,2,1,0.9552
253,KSH,high,2,10,1,0,0,0.0000
253,KSH,high,2,11,2,2,1,0.9910
253,KSH,high,2,12,2,2,1,0.7075
254,JJY,high,2,1,1,0,0,0.0000
254,JJY,high,2,2,2,0,0,0.0000
254,JJY,high,2,3,1,1,1,0.7351
254,JJY,high,2,4,1,1,1,0.8399
254,JJY,high,2,5,1,1,1,0.9737
254,JJY,high,2,6,1,1,1,0.7230
254,JJY,high,2,7,2,2,1,1.3205
254,JJY,high,2,8,2,2,1,0.9414
254,JJY,high,2,9,2,2,1,0.9455
254,JJY,high,2,10,1,0,0,0.0000
254,JJY,high,2,11,2,2,1,1.6534
254,JJY,high,2,12,2,2,1,1.0163
255,KBR,high,2,1,2,0,0,0.0000
255,KBR,high,2,2,1,1,1,1.7699
255,KBR,high,2,3,1,1,1,0.9453
255,KBR,high,2,4,1,1,1,0.8584
255,KBR,high,2,5,2,2,1,1.5979
255,KBR,high,2,6,2,2,1,1.2204
255,KBR,high,2,7,1,1,1,0.8523
255,KBR,high,2,8,1,1,1,0.8248
255,KBR,high,2,9,2,2,1,1.6643
255,KBR,high,2,10,2,2,1,1.1249
255,KBR,high,2,11,1,1,1,1.2914
255,KBR,high,2,12,2,2,1,1.1694
256,LSJ,high,2,1,2,0,0,0.0000
256,LSJ,high,2,2,1,1,1,1.3298
256,LSJ,high,2,3,1,1,1,0.9836
256,LSJ,high,2,4,1,1,1,0.9614
256,LSJ,high,2,5,2,2,1,1.4460
256,LSJ,high,2,6,2,2,1,1.2590
256,LSJ,high,2,7,1,1,1,1.4675
256,LSJ,high,2,8,1,1,1,1.3122
256,LSJ,high,2,9,2,2,1,1.4149
256,LSJ,high,2,10,2,0,0,0.0000
256,LSJ,high,2,11,1,2,0,1.0106
256,LSJ,high,2,12,2,2,1,1.3357
257,SSY,high,2,1,1,1,1,1.6724
257,SSY,high,2,2,2,2,1,1.5781
257,SSY,high,2,3,1,1,1,0.9774
257,SSY,high,2,4,2,2,1,1.2109
257,SSY,high,2,5,2,2,1,1.0567
257,SSY,high,2,6,2,2,1,0.7089
257,SSY,high,2,7,1,1,1,1.0383
257,SSY,high,2,8,2,2,1,0.8540
257,SSY,high,2,9,2,2,1,0.6676
257,SSY,high,2,10,1,1,1,0.8214
257,SSY,high,2,11,1,1,1,0.7627
257,SSY,high,2,12,1,1,1,0.6061
258,LTH,high,2,1,1,0,0,0.0000
258,LTH,high,2,2,2,2,1,1.7149
258,LTH,high,2,3,1,1,1,1.0796
258,LTH,high,2,4,2,2,1,1.1243
258,LTH,high,2,5,2,2,1,1.1611
258,LTH,high,2,6,2,2,1,0.7497
258,LTH,high,2,7,1,1,1,0.8569
258,LTH,high,2,8,2,2,1,0.9251
258,LTH,high,2,9,2,2,1,0.7067
258,LTH,high,2,10,1,1,1,0.7644
258,LTH,high,2,11,1,1,1,0.6765
258,LTH,high,2,12,1,1,1,0.4231
